<?xml version="1.0" encoding="UTF-8"?>

<Bundle xmlns="http://hl7.org/fhir">
  <id value="message"/>
  <identifier>
    <system value="urn:example-org:sender.identifiers"/>
    <value value="efdd254b-0e09-4164-883e-35cf3871715f"/>
  </identifier>
  <type value="message"/>
  <timestamp value="2015-07-14T11:15:33+10:00"/>
  <entry>
    <fullUrl value="http://example.org/MessageHeader/messageheader1"/>
    <resource>
      <MessageHeader>
        <id value="messageheader1"/>
        <text>
          <status value="generated"/><div xmlns="http://www.w3.org/1999/xhtml"><a name="MessageHeader_messageheader1"> </a><p class="res-header-id"><b>Generated Narrative: MessageHeader messageheader1</b></p><a name="messageheader1"> </a><a name="hcmessageheader1"> </a><a name="messageheader1-pt-PT"> </a><p><b>event</b>: example.org ADR: Reacção Adversa</p><h3>Sources</h3><table class="grid"><tr><td style="display: none">-</td><td><b>Name</b></td></tr><tr><td style="display: none">*</td><td>Reporter</td></tr></table><p><b>focus</b>: </p><ul><li><a href="AdverseEvent-Notifi-2.html">AdverseEvent Pyrexia</a></li><li><a href="Patient-pat-1.html">Américo  Male, DoB: 1980-01-01</a></li><li><a href="Practitioner-not-1.html">Practitioner Sandra </a></li><li><a href="MedicationStatement-medinfo-1.html">MedicationStatement: status = recorded; effective[x] = 2024-11-01</a></li><li><a href="Medication-med1.html">Medication Evrysdi / Risdiplam</a></li></ul></div>
        </text>
        <eventCoding>
          <system value="http://example.org"/>
          <code value="ADR"/>
          <display value="Reacção Adversa"/>
        </eventCoding>
        <source>
          <name value="Reporter"/>
        </source>
        <focus>
          <reference value="AdverseEvent/Notifi-2"/>
        </focus>
        <focus>
          <reference value="Patient/pat-1"/>
        </focus>
        <focus>
          <reference value="Practitioner/not-1"/>
        </focus>
        <focus>
          <reference value="MedicationStatement/medinfo-1"/>
        </focus>
        <focus>
          <reference value="Medication/med1"/>
        </focus>
      </MessageHeader>
    </resource>
  </entry>
  <entry>
    <fullUrl value="http://example.org/AdverseEvent/Notifi-2"/>
    <resource>
      <AdverseEvent>
        <id value="Notifi-2"/>
        <meta>
          <profile value="https://hl7.pt/fhir/ADR/StructureDefinition/ReacaoAdversa"/>
        </meta>
        <text>
          <status value="generated"/><div xmlns="http://www.w3.org/1999/xhtml"><a name="AdverseEvent_Notifi-2"> </a><p class="res-header-id"><b>Generated Narrative: AdverseEvent Notifi-2</b></p><a name="Notifi-2"> </a><a name="hcNotifi-2"> </a><a name="Notifi-2-pt-PT"> </a><p><b>identifier</b>: <code>http:/example.org</code>/2</p><p><b>status</b>: Completed</p><p><b>actuality</b>: Adverse Event</p><p><b>code</b>: <span title="Codes:{http://terminology.hl7.org/CodeSystem/MDRPOR 10037660}">Pyrexia</span></p><p><b>subject</b>: <a href="Patient-pat-1.html">Américo  Male, DoB: 1980-01-01</a></p><p><b>detected</b>: 2024-11-14</p><p><b>recordedDate</b>: 2024-11-14</p><p><b>seriousness</b>: <span title="Codes:{https://hl7.pt/fhir/ADR/CodeSystem/adr-gravidade-cs HOSP}">Hospitalização</span></p><p><b>recorder</b>: <a href="Practitioner-not-1.html">Practitioner Sandra </a></p><h3>SuspectEntities</h3><table class="grid"><tr><td style="display: none">-</td><td><b>Instance[x]</b></td></tr><tr><td style="display: none">*</td><td><a href="MedicationStatement-medinfo-1.html">MedicationStatement: status = recorded; effective[x] = 2024-11-01</a></td></tr></table></div>
        </text>
        <identifier>
          <system value="http:/example.org"/>
          <value value="2"/>
        </identifier>
        <status value="completed"/>
        <actuality value="actual"/>
        <code>
          <coding>
            <system value="http://terminology.hl7.org/CodeSystem/MDRPOR"/>
            <code value="10037660"/>
            <display value="Pyrexia"/>
          </coding>
        </code>
        <subject>
          <reference value="Patient/pat-1"/>
        </subject>
        <detected value="2024-11-14"/>
        <recordedDate value="2024-11-14"/>
        <seriousness>
          <coding>
            <system value="https://hl7.pt/fhir/ADR/CodeSystem/adr-gravidade-cs"/>
            <code value="HOSP"/>
            <display value="Hospitalização"/>
          </coding>
        </seriousness>
        <recorder>
          <reference value="Practitioner/not-1"/>
        </recorder>
        <suspectEntity>
          <instanceReference>
            <reference value="MedicationStatement/medinfo-1"/>
          </instanceReference>
        </suspectEntity>
      </AdverseEvent>
    </resource>
  </entry>
  <entry>
    <fullUrl value="http://example.org/Patient/pat-1"/>
    <resource>
      <Patient>
        <id value="pat-1"/>
        <meta>
          <profile value="https://hl7.pt/fhir/ADR/StructureDefinition/Doente"/>
        </meta>
        <text>
          <status value="generated"/><div xmlns="http://www.w3.org/1999/xhtml"><a name="Patient_pat-1"> </a><p class="res-header-id"><b>Generated Narrative: Patient pat-1</b></p><a name="pat-1"> </a><a name="hcpat-1"> </a><a name="pat-1-pt-PT"> </a><p style="border: 1px #661aff solid; background-color: #e6e6ff; padding: 10px;">Américo  Male, DoB: 1980-01-01</p><hr/></div>
        </text>
        <name>
          <given value="Américo"/>
        </name>
        <gender value="male"/>
        <birthDate value="1980-01-01"/>
      </Patient>
    </resource>
  </entry>
  <entry>
    <fullUrl value="http://example.org/Practitioner/not-1"/>
    <resource>
      <Practitioner>
        <id value="not-1"/>
        <meta>
          <profile value="https://hl7.pt/fhir/ADR/StructureDefinition/ProfissionalSaude"/>
        </meta>
        <text>
          <status value="generated"/><div xmlns="http://www.w3.org/1999/xhtml"><a name="Practitioner_not-1"> </a><p class="res-header-id"><b>Generated Narrative: Practitioner not-1</b></p><a name="not-1"> </a><a name="hcnot-1"> </a><a name="not-1-pt-PT"> </a><p><b>name</b>: Sandra </p><p><b>telecom</b>: <a href="mailto:exemplo@exemplo.org">exemplo@exemplo.org</a></p><h3>Qualifications</h3><table class="grid"><tr><td style="display: none">-</td><td><b>Code</b></td></tr><tr><td style="display: none">*</td><td><span title="Codes:{http://terminology.hl7.org/CodeSystem/v2-0360 PA}">Physician Assistant</span></td></tr></table></div>
        </text>
        <name>
          <given value="Sandra"/>
        </name>
        <telecom>
          <system value="email"/>
          <value value="exemplo@exemplo.org"/>
          <use value="work"/>
        </telecom>
        <qualification>
          <code>
            <coding>
              <system value="http://terminology.hl7.org/CodeSystem/v2-0360"/>
              <code value="PA"/>
              <display value="Physician Assistant"/>
            </coding>
          </code>
        </qualification>
      </Practitioner>
    </resource>
  </entry>
  <entry>
    <fullUrl value="http://example.org/MedicationStatement/medinfo-1"/>
    <resource>
      <MedicationStatement>
        <id value="medinfo-1"/>
        <meta>
          <profile value="https://hl7.pt/fhir/ADR/StructureDefinition/InformacaoMedicamento"/>
        </meta>
        <text>
          <status value="generated"/><div xmlns="http://www.w3.org/1999/xhtml"><a name="MedicationStatement_medinfo-1"> </a><p class="res-header-id"><b>Generated Narrative: MedicationStatement medinfo-1</b></p><a name="medinfo-1"> </a><a name="hcmedinfo-1"> </a><a name="medinfo-1-pt-PT"> </a><p><b>status</b>: Recorded</p><h3>Medications</h3><table class="grid"><tr><td style="display: none">-</td><td><b>Reference</b></td></tr><tr><td style="display: none">*</td><td><a href="Medication-med1.html">Medication Evrysdi / Risdiplam</a></td></tr></table><p><b>subject</b>: <a href="Patient-pat-1.html">Américo  Male, DoB: 1980-01-01</a></p><p><b>effective</b>: 2024-11-01</p><h3>Dosages</h3><table class="grid"><tr><td style="display: none">-</td><td><b>Route</b></td></tr><tr><td style="display: none">*</td><td><span title="Codes:{http://example.org 1}">Oral</span></td></tr></table></div>
        </text>
        <status value="recorded"/>
        <medication>
          <reference>
            <reference value="Medication/med1"/>
          </reference>
        </medication>
        <subject>
          <reference value="Patient/pat-1"/>
        </subject>
        <effectiveDateTime value="2024-11-01"/>
        <dosage>
          <route>
            <coding>
              <system value="http://example.org"/>
              <code value="1"/>
              <display value="Oral"/>
            </coding>
          </route>
        </dosage>
      </MedicationStatement>
    </resource>
  </entry>
  <entry>
    <fullUrl value="http://example.org/Medication/med1"/>
    <resource>
      <Medication>
        <id value="med1"/>
        <text>
          <status value="generated"/><div xmlns="http://www.w3.org/1999/xhtml"><a name="Medication_med1"> </a><p class="res-header-id"><b>Generated Narrative: Medication med1</b></p><a name="med1"> </a><a name="hcmed1"> </a><a name="med1-pt-PT"> </a><p><b>code</b>: <span title="Codes:{http://example.org 1}">Evrysdi / Risdiplam</span></p><h3>Batches</h3><table class="grid"><tr><td style="display: none">-</td><td><b>LotNumber</b></td></tr><tr><td style="display: none">*</td><td>a11234</td></tr></table></div>
        </text>
        <code>
          <coding>
            <system value="http://example.org"/>
            <code value="1"/>
            <display value="Evrysdi / Risdiplam"/>
          </coding>
        </code>
        <batch>
          <lotNumber value="a11234"/>
        </batch>
      </Medication>
    </resource>
  </entry>
</Bundle>